{
  "id": "c9b62bd5-e876-4a17-867e-db2dd366caa1",
  "meta": {
    "lastUpdated": "2021-05-05T17:45:33.888882+02:00"
  },
  "resourceType": "Bundle",
  "type": "searchset",
  "total": 5,
  "link": [
    {
      "relation": "self",
      "url": "Bundlec9b62bd5-e876-4a17-867e-db2dd366caa1"
    }
  ],
  "entry": [
    {
      "resource": {
        "id": "a4d2a2ca-8b79-4792-a2be-3b72e1ccdedb",
        "meta": {
          "lastUpdated": "2021-04-29T14:53:29+02:00",
          "versionId": "1"
        },
        "resourceType": "Location",
        "contained": [
          {
            "id": "a4d2a2ca-8b79-4792-a2be-3b72e1ccdedbMobile",
            "resourceType": "HealthcareService",
            "active": true,
            "coverageArea": [
              {
                "extension": [
                  {
                    "url": "https://ngda.de/fhir/extensions/ServiceCoverageRange",
                    "valueQuantity": {
                      "value": 5000,
                      "unit": "m"
                    }
                  }
                ]
              }
            ],
            "location": [
              {
                "reference": "Location/a4d2a2ca-8b79-4792-a2be-3b72e1ccdedb"
              }
            ],
            "type": [
              {
                "coding": [
                  {
                    "system": "http://terminology.hl7.org/CodeSystem/service-type",
                    "code": "498",
                    "display": "Mobile Services"
                  }
                ]
              }
            ]
          }
        ],
        "address": {
          "use": "work",
          "type": "physical",
          "text": "",
          "line": [
            "Pacocha Drive 5478"
          ],
          "postalCode": "53055",
          "city": "Münster",
          "country": "de"
        },
        "createdAt": "2021-04-29T14:53:29+02:00",
        "identifier": [
          {
            "system": "https://gematik.de/fhir/NamingSystem/TelematikID",
            "value": "3-06.2.ycl.216"
          },
          {
            "system": "https://ngda.de/fhir/Namingsystem/NID",
            "value": "APO1961700"
          }
        ],
        "name": "Adler Apotheke",
        "position": {
          "latitude": 52.44123,
          "longitude": 13.440244
        },
        "telecom": [
          {
            "system": "phone",
            "value": "(265) 210-8497"
          },
          {
            "system": "fax",
            "value": "(212) 635-7610"
          },
          {
            "system": "email",
            "value": "kianna57@hotmail.com"
          },
          {
            "system": "url",
            "value": "https://www.goldner.net"
          }
        ],
        "type": [
          {
            "coding": [
              {
                "system": "http://terminology.hl7.org/ValueSet/v3-ServiceDeliveryLocationRoleType",
                "code": "PHARM",
                "display": "pharmacy"
              }
            ]
          },
          {
            "coding": [
              {
                "system": "http://terminology.hl7.org/ValueSet/v3-ServiceDeliveryLocationRoleType",
                "code": "OUTPHARM",
                "display": "outpatient pharmacy"
              }
            ]
          }
        ],
        "updatedAt": "2021-04-29T14:53:29+02:00"
      }
    },
    {
      "resource": {
        "id": "55c5744f-49ad-4e43-92c2-cda9bc478b74",
        "meta": {
          "lastUpdated": "2021-04-29T14:53:29+02:00",
          "versionId": "1"
        },
        "resourceType": "Location",
        "contained": [
          {
            "id": "55c5744f-49ad-4e43-92c2-cda9bc478b74Mobile",
            "resourceType": "HealthcareService",
            "active": true,
            "coverageArea": [
              {
                "extension": [
                  {
                    "url": "https://ngda.de/fhir/extensions/ServiceCoverageRange",
                    "valueQuantity": {
                      "value": 5000,
                      "unit": "m"
                    }
                  }
                ]
              }
            ],
            "location": [
              {
                "reference": "Location/55c5744f-49ad-4e43-92c2-cda9bc478b74"
              }
            ],
            "type": [
              {
                "coding": [
                  {
                    "system": "http://terminology.hl7.org/CodeSystem/service-type",
                    "code": "498",
                    "display": "Mobile Services"
                  }
                ]
              }
            ]
          }
        ],
        "address": {
          "use": "work",
          "type": "physical",
          "text": "",
          "line": [
            "Pouros Fork 7256y"
          ],
          "postalCode": "14176",
          "city": "Münster",
          "country": "de"
        },
        "createdAt": "2021-04-29T14:53:29+02:00",
        "identifier": [
          {
            "system": "https://gematik.de/fhir/NamingSystem/TelematikID",
            "value": "3-09.2.S.10.743"
          },
          {
            "system": "https://ngda.de/fhir/Namingsystem/NID",
            "value": "APO4328690"
          }
        ],
        "name": "Apotheke am Clemenshospital",
        "position": {
          "latitude": 52.430995,
          "longitude": 13.426651
        },
        "telecom": [
          {
            "system": "phone",
            "value": "719.478.6628 x16969"
          },
          {
            "system": "fax",
            "value": "+1-530-358-5427"
          },
          {
            "system": "email",
            "value": "hildegard64@ratke.biz"
          },
          {
            "system": "url",
            "value": "https://www.lakin.info"
          }
        ],
        "type": [
          {
            "coding": [
              {
                "system": "http://terminology.hl7.org/ValueSet/v3-ServiceDeliveryLocationRoleType",
                "code": "PHARM",
                "display": "pharmacy"
              }
            ]
          },
          {
            "coding": [
              {
                "system": "http://terminology.hl7.org/ValueSet/v3-ServiceDeliveryLocationRoleType",
                "code": "OUTPHARM",
                "display": "outpatient pharmacy"
              }
            ]
          }
        ],
        "updatedAt": "2021-04-29T14:53:29+02:00"
      }
    },
    {
      "resource": {
        "id": "32dd222f-6781-4f80-8802-7ed0335a3116",
        "meta": {
          "lastUpdated": "2021-04-29T14:53:29+02:00",
          "versionId": "1"
        },
        "resourceType": "Location",
        "contained": [
          {
            "id": "32dd222f-6781-4f80-8802-7ed0335a3116Mobile",
            "resourceType": "HealthcareService",
            "active": true,
            "coverageArea": [
              {
                "extension": [
                  {
                    "url": "https://ngda.de/fhir/extensions/ServiceCoverageRange",
                    "valueQuantity": {
                      "value": 5000,
                      "unit": "m"
                    }
                  }
                ]
              }
            ],
            "location": [
              {
                "reference": "Location/32dd222f-6781-4f80-8802-7ed0335a3116"
              }
            ],
            "type": [
              {
                "coding": [
                  {
                    "system": "http://terminology.hl7.org/CodeSystem/service-type",
                    "code": "498",
                    "display": "Mobile Services"
                  }
                ]
              }
            ]
          }
        ],
        "address": {
          "use": "work",
          "type": "physical",
          "text": "",
          "line": [
            "Jaclyn Landing 8198t"
          ],
          "postalCode": "63182",
          "city": "Münster",
          "country": "de"
        },
        "createdAt": "2021-04-29T14:53:29+02:00",
        "identifier": [
          {
            "system": "https://gematik.de/fhir/NamingSystem/TelematikID",
            "value": "3-06.2.rn1C.537"
          },
          {
            "system": "https://ngda.de/fhir/Namingsystem/NID",
            "value": "APO8964424"
          }
        ],
        "name": "Felix Apotheke",
        "position": {
          "latitude": 52.573457,
          "longitude": 13.478502
        },
        "telecom": [
          {
            "system": "phone",
            "value": "(903) 370-4114"
          },
          {
            "system": "fax",
            "value": "1-803-312-4513 x16102"
          },
          {
            "system": "email",
            "value": "iondricka@gmail.com"
          },
          {
            "system": "url",
            "value": "https://www.nitzsche.com"
          }
        ],
        "type": [
          {
            "coding": [
              {
                "system": "http://terminology.hl7.org/ValueSet/v3-ServiceDeliveryLocationRoleType",
                "code": "PHARM",
                "display": "pharmacy"
              }
            ]
          },
          {
            "coding": [
              {
                "system": "http://terminology.hl7.org/ValueSet/v3-ServiceDeliveryLocationRoleType",
                "code": "OUTPHARM",
                "display": "outpatient pharmacy"
              }
            ]
          }
        ],
        "updatedAt": "2021-04-29T14:53:29+02:00"
      }
    },
    {
      "resource": {
        "id": "8dc63705-d337-4dc3-ac97-cc5d5047654c",
        "meta": {
          "lastUpdated": "2021-04-29T14:53:29+02:00",
          "versionId": "1"
        },
        "resourceType": "Location",
        "contained": [
          {
            "id": "8dc63705-d337-4dc3-ac97-cc5d5047654cMobile",
            "resourceType": "HealthcareService",
            "active": true,
            "coverageArea": [
              {
                "extension": [
                  {
                    "url": "https://ngda.de/fhir/extensions/ServiceCoverageRange",
                    "valueQuantity": {
                      "value": 5000,
                      "unit": "m"
                    }
                  }
                ]
              }
            ],
            "location": [
              {
                "reference": "Location/8dc63705-d337-4dc3-ac97-cc5d5047654c"
              }
            ],
            "type": [
              {
                "coding": [
                  {
                    "system": "http://terminology.hl7.org/CodeSystem/service-type",
                    "code": "498",
                    "display": "Mobile Services"
                  }
                ]
              }
            ]
          }
        ],
        "address": {
          "use": "work",
          "type": "physical",
          "text": "",
          "line": [
            "Spencer Overpass 816"
          ],
          "postalCode": "80435",
          "city": "Münster",
          "country": "de"
        },
        "createdAt": "2021-04-29T14:53:29+02:00",
        "identifier": [
          {
            "system": "https://gematik.de/fhir/NamingSystem/TelematikID",
            "value": "3-05.2.RFeL.351"
          },
          {
            "system": "https://ngda.de/fhir/Namingsystem/NID",
            "value": "APO5651731"
          }
        ],
        "name": "Ludgeri Apotheke",
        "position": {
          "latitude": 52.463978,
          "longitude": 13.473145
        },
        "telecom": [
          {
            "system": "phone",
            "value": "947-344-2426 x43520"
          },
          {
            "system": "fax",
            "value": "340.621.6844 x84910"
          },
          {
            "system": "email",
            "value": "theodore29@schmidt.com"
          },
          {
            "system": "url",
            "value": "https://www.wolf.info"
          }
        ],
        "type": [
          {
            "coding": [
              {
                "system": "http://terminology.hl7.org/ValueSet/v3-ServiceDeliveryLocationRoleType",
                "code": "PHARM",
                "display": "pharmacy"
              }
            ]
          },
          {
            "coding": [
              {
                "system": "http://terminology.hl7.org/ValueSet/v3-ServiceDeliveryLocationRoleType",
                "code": "OUTPHARM",
                "display": "outpatient pharmacy"
              }
            ]
          }
        ],
        "updatedAt": "2021-04-29T14:53:29+02:00"
      }
    },
    {
      "resource": {
        "id": "934524a5-850c-4f61-bd9f-3d2c7798074b",
        "meta": {
          "lastUpdated": "2021-04-29T14:53:29+02:00",
          "versionId": "1"
        },
        "resourceType": "Location",
        "contained": [
          {
            "id": "934524a5-850c-4f61-bd9f-3d2c7798074bMobile",
            "resourceType": "HealthcareService",
            "active": true,
            "coverageArea": [
              {
                "extension": [
                  {
                    "url": "https://ngda.de/fhir/extensions/ServiceCoverageRange",
                    "valueQuantity": {
                      "value": 5000,
                      "unit": "m"
                    }
                  }
                ]
              }
            ],
            "location": [
              {
                "reference": "Location/934524a5-850c-4f61-bd9f-3d2c7798074b"
              }
            ],
            "type": [
              {
                "coding": [
                  {
                    "system": "http://terminology.hl7.org/CodeSystem/service-type",
                    "code": "498",
                    "display": "Mobile Services"
                  }
                ]
              }
            ]
          }
        ],
        "address": {
          "use": "work",
          "type": "physical",
          "text": "",
          "line": [
            "Jerde Locks 80054"
          ],
          "postalCode": "81518",
          "city": "Münster",
          "country": "de"
        },
        "createdAt": "2021-04-29T14:53:29+02:00",
        "identifier": [
          {
            "system": "https://gematik.de/fhir/NamingSystem/TelematikID",
            "value": "3-09.2.dQOhhk.16.891"
          },
          {
            "system": "https://ngda.de/fhir/Namingsystem/NID",
            "value": "APO8207054"
          }
        ],
        "name": "St. Georg Apotheke",
        "position": {
          "latitude": 52.554855,
          "longitude": 13.426558
        },
        "telecom": [
          {
            "system": "phone",
            "value": "751-832-7191"
          },
          {
            "system": "fax",
            "value": "(826) 649-6418 x4069"
          },
          {
            "system": "email",
            "value": "leatha.braun@dicki.info"
          },
          {
            "system": "url",
            "value": "https://www.gottlieb.biz"
          }
        ],
        "type": [
          {
            "coding": [
              {
                "system": "http://terminology.hl7.org/ValueSet/v3-ServiceDeliveryLocationRoleType",
                "code": "PHARM",
                "display": "pharmacy"
              }
            ]
          },
          {
            "coding": [
              {
                "system": "http://terminology.hl7.org/ValueSet/v3-ServiceDeliveryLocationRoleType",
                "code": "OUTPHARM",
                "display": "outpatient pharmacy"
              }
            ]
          }
        ],
        "updatedAt": "2021-04-29T14:53:29+02:00"
      }
    }
  ]
}
